Brown University Keck/NASA Relab Spectrum LR-CMP-098/BKR1LR098
Wavelength(micron)	Reflectance
0.3	0.07532
0.305	0.07620
0.31	0.07840
0.315	0.07990
0.32	0.08165
0.325	0.08296
0.33	0.08392
0.335	0.08503
0.34	0.08620
0.345	0.08735
0.35	0.08864
0.355	0.09003
0.36	0.09128
0.365	0.09260
0.37	0.09388
0.375	0.09523
0.38	0.09653
0.385	0.09784
0.39	0.09913
0.395	0.10034
0.4	0.10140
0.405	0.10242
0.41	0.10337
0.415	0.10427
0.42	0.10518
0.425	0.10622
0.43	0.10720
0.435	0.10806
0.44	0.10898
0.445	0.10979
0.45	0.11057
0.455	0.11136
0.46	0.11215
0.465	0.11290
0.47	0.11381
0.475	0.11470
0.48	0.11556
0.485	0.11630
0.49	0.11699
0.495	0.11761
0.5	0.11801
0.505	0.11853
0.51	0.11918
0.515	0.11987
0.52	0.12070
0.525	0.12156
0.53	0.12237
0.535	0.12324
0.54	0.12408
0.545	0.12483
0.55	0.12577
0.555	0.12651
0.56	0.12709
0.565	0.12771
0.57	0.12839
0.575	0.12902
0.58	0.12984
0.585	0.13077
0.59	0.13164
0.595	0.13250
0.6	0.13343
0.605	0.13428
0.61	0.13506
0.615	0.13592
0.62	0.13664
0.625	0.13706
0.63	0.13754
0.635	0.13805
0.64	0.13854
0.645	0.13898
0.65	0.13956
0.655	0.14011
0.66	0.14070
0.665	0.14119
0.67	0.14173
0.675	0.14218
0.68	0.14251
0.685	0.14278
0.69	0.14289
0.695	0.14326
0.7	0.14380
0.705	0.14434
0.71	0.14485
0.715	0.14568
0.72	0.14622
0.725	0.14677
0.73	0.14727
0.735	0.14789
0.74	0.14832
0.745	0.14887
0.75	0.14924
0.755	0.14972
0.76	0.15015
0.765	0.15064
0.77	0.15105
0.775	0.15151
0.78	0.15188
0.785	0.15226
0.79	0.15264
0.795	0.15305
0.8	0.15351
0.805	0.15415
0.81	0.15474
0.815	0.15528
0.82	0.15555
0.825	0.15587
0.83	0.15587
0.835	0.15607
0.84	0.15626
0.845	0.15667
0.85	0.15707
0.855	0.15779
0.86	0.15791
0.865	0.15826
0.87	0.15819
0.875	0.15791
0.88	0.15844
0.885	0.15816
0.89	0.15873
0.895	0.15905
0.9	0.15901
0.905	0.16017
0.91	0.16002
0.915	0.16021
0.92	0.16090
0.925	0.16134
0.93	0.16120
0.935	0.16222
0.94	0.16234
0.945	0.16222
0.95	0.16280
0.955	0.16373
0.96	0.16394
0.965	0.16490
0.97	0.16534
0.975	0.16554
0.98	0.16600
0.985	0.16641
0.99	0.16643
0.995	0.16809
1	0.16801
1.005	0.16958
1.01	0.16928
1.015	0.17002
1.02	0.17055
1.025	0.17112
1.03	0.17156
1.035	0.17259
1.04	0.17276
1.045	0.17373
1.05	0.17427
1.055	0.17434
1.06	0.17526
1.065	0.17625
1.07	0.17661
1.075	0.17822
1.08	0.17868
1.085	0.17963
1.09	0.18073
1.095	0.18160
1.1	0.18224
1.105	0.18354
1.11	0.18373
1.115	0.18420
1.12	0.18533
1.125	0.18658
1.13	0.18724
1.135	0.18802
1.14	0.18886
1.145	0.18961
1.15	0.18940
1.155	0.19013
1.16	0.19076
1.165	0.19117
1.17	0.19205
1.175	0.19244
1.18	0.19327
1.185	0.19469
1.19	0.19510
1.195	0.19525
1.2	0.19616
1.205	0.19666
1.21	0.19735
1.215	0.19777
1.22	0.19836
1.225	0.19895
1.23	0.19956
1.235	0.19973
1.24	0.20013
1.245	0.20061
1.25	0.20087
1.255	0.20151
1.26	0.20232
1.265	0.20298
1.27	0.20345
1.275	0.20367
1.28	0.20420
1.285	0.20564
1.29	0.20645
1.295	0.20757
1.3	0.20827
1.305	0.20886
1.31	0.20957
1.315	0.21054
1.32	0.21096
1.325	0.21167
1.33	0.21244
1.335	0.21348
1.34	0.21365
1.345	0.21479
1.35	0.21527
1.355	0.21554
1.36	0.21656
1.365	0.21732
1.37	0.21759
1.375	0.21861
1.38	0.21865
1.385	0.22112
1.39	0.22219
1.395	0.22178
1.4	0.22284
1.405	0.22335
1.41	0.22436
1.415	0.22507
1.42	0.22589
1.425	0.22629
1.43	0.22704
1.435	0.22788
1.44	0.22855
1.445	0.22922
1.45	0.22994
1.455	0.23091
1.46	0.23161
1.465	0.23308
1.47	0.23371
1.475	0.23457
1.48	0.23529
1.485	0.23602
1.49	0.23635
1.495	0.23695
1.5	0.23742
1.505	0.23799
1.51	0.23834
1.515	0.23901
1.52	0.23934
1.525	0.23973
1.53	0.23990
1.535	0.24054
1.54	0.24115
1.545	0.24202
1.55	0.24310
1.555	0.24469
1.56	0.24536
1.565	0.24582
1.57	0.24630
1.575	0.24614
1.58	0.24652
1.585	0.24721
1.59	0.24768
1.595	0.24864
1.6	0.24923
1.605	0.24989
1.61	0.25041
1.615	0.25096
1.62	0.25084
1.625	0.25085
1.63	0.25089
1.635	0.25105
1.64	0.25141
1.645	0.25227
1.65	0.25335
1.655	0.25223
1.66	0.25346
1.665	0.25381
1.67	0.25390
1.675	0.25438
1.68	0.25473
1.685	0.25516
1.69	0.25576
1.695	0.25669
1.7	0.25627
1.705	0.25668
1.71	0.25656
1.715	0.25779
1.72	0.25784
1.725	0.25866
1.73	0.25842
1.735	0.25989
1.74	0.25911
1.745	0.26038
1.75	0.25983
1.755	0.26102
1.76	0.26059
1.765	0.26152
1.77	0.26230
1.775	0.26206
1.78	0.26295
1.785	0.26301
1.79	0.26286
1.795	0.26340
1.8	0.26345
1.805	0.26327
1.81	0.26412
1.815	0.26490
1.82	0.26572
1.825	0.26570
1.83	0.26607
1.835	0.26634
1.84	0.26641
1.845	0.26669
1.85	0.26681
1.855	0.26682
1.86	0.26735
1.865	0.26787
1.87	0.26803
1.875	0.26849
1.88	0.26918
1.885	0.26940
1.89	0.27023
1.895	0.27081
1.9	0.27110
1.905	0.27147
1.91	0.27177
1.915	0.27194
1.92	0.27233
1.925	0.27242
1.93	0.27299
1.935	0.27445
1.94	0.27445
1.945	0.27536
1.95	0.27548
1.955	0.27641
1.96	0.27570
1.965	0.27553
1.97	0.27548
1.975	0.27671
1.98	0.27751
1.985	0.27833
1.99	0.27812
1.995	0.27834
2	0.27883
2.005	0.27952
2.01	0.27987
2.015	0.28073
2.02	0.28135
2.025	0.28161
2.03	0.28200
2.035	0.28209
2.04	0.28269
2.045	0.28282
2.05	0.28334
2.055	0.28396
2.06	0.28448
2.065	0.28519
2.07	0.28607
2.075	0.28668
2.08	0.28680
2.085	0.28740
2.09	0.28770
2.095	0.28843
2.1	0.28969
2.105	0.29061
2.11	0.29134
2.115	0.29159
2.12	0.29175
2.125	0.29184
2.13	0.29236
2.135	0.29231
2.14	0.29279
2.145	0.29491
2.15	0.29490
2.155	0.29542
2.16	0.29627
2.165	0.29612
2.17	0.29670
2.175	0.29725
2.18	0.29777
2.185	0.29859
2.19	0.29910
2.195	0.30007
2.2	0.30072
2.205	0.30145
2.21	0.30201
2.215	0.30307
2.22	0.30363
2.225	0.30439
2.23	0.30531
2.235	0.30603
2.24	0.30667
2.245	0.30755
2.25	0.30818
2.255	0.30892
2.26	0.30990
2.265	0.31064
2.27	0.31084
2.275	0.31163
2.28	0.31221
2.285	0.31283
2.29	0.31349
2.295	0.31457
2.3	0.31525
2.305	0.31600
2.31	0.31652
2.315	0.31679
2.32	0.31709
2.325	0.31759
2.33	0.31803
2.335	0.31857
2.34	0.31935
2.345	0.32014
2.35	0.32086
2.355	0.32167
2.36	0.32218
2.365	0.32266
2.37	0.32281
2.375	0.32336
2.38	0.32381
2.385	0.32489
2.39	0.32562
2.395	0.32658
2.4	0.32730
2.405	0.32785
2.41	0.32815
2.415	0.32902
2.42	0.32949
2.425	0.33013
2.43	0.33105
2.435	0.33183
2.44	0.33235
2.445	0.33309
2.45	0.33368
2.455	0.33409
2.46	0.33451
2.465	0.33511
2.47	0.33585
2.475	0.33661
2.48	0.33750
2.485	0.33849
2.49	0.33926
2.495	0.34019
2.5	0.34076
2.505	0.34111
2.51	0.34135
2.515	0.34185
2.52	0.34218
2.525	0.34282
2.53	0.34365
2.535	0.34455
2.54	0.34476
2.545	0.34450
2.55	0.34568
2.5519	0.34580
2.5531	0.34591
2.5544	0.34599
2.5557	0.34610
2.5569	0.34628
2.5582	0.34638
2.5594	0.34652
2.5607	0.34674
2.562	0.34685
2.5632	0.34697
2.5645	0.34714
2.5658	0.34716
2.5671	0.34711
2.5683	0.34726
2.5696	0.34747
2.5709	0.34747
2.5721	0.34760
2.5734	0.34791
2.5747	0.34793
2.576	0.34805
2.5773	0.34820
2.5785	0.34816
2.5798	0.34827
2.5811	0.34851
2.5824	0.34857
2.5837	0.34879
2.585	0.34880
2.5863	0.34886
2.5875	0.34904
2.5888	0.34913
2.5901	0.34921
2.5914	0.34923
2.5927	0.34943
2.594	0.34992
2.5953	0.35018
2.5966	0.34986
2.5979	0.34977
2.5992	0.34983
2.6005	0.34997
2.6018	0.35015
2.6031	0.35029
2.6044	0.35052
2.6058	0.35075
2.6071	0.35068
2.6084	0.35073
2.6097	0.35082
2.611	0.35084
2.6123	0.35095
2.6136	0.35105
2.6149	0.35110
2.6163	0.35140
2.6176	0.35148
2.6189	0.35145
2.6202	0.35177
2.6216	0.35171
2.6229	0.35168
2.6242	0.35181
2.6255	0.35198
2.6269	0.35219
2.6282	0.35209
2.6295	0.35234
2.6309	0.35256
2.6322	0.35240
2.6335	0.35246
2.6349	0.35255
2.6362	0.35260
2.6376	0.35273
2.6389	0.35284
2.6402	0.35295
2.6416	0.35302
2.6429	0.35309
2.6443	0.35322
2.6456	0.35336
2.647	0.35335
2.6483	0.35342
2.6497	0.35349
2.651	0.35361
2.6524	0.35380
2.6538	0.35378
2.6551	0.35384
2.6565	0.35391
2.6578	0.35397
2.6592	0.35417
2.6606	0.35420
2.6619	0.35424
2.6633	0.35431
2.6647	0.35462
2.666	0.35484
2.6674	0.35470
2.6688	0.35449
2.6701	0.35476
2.6715	0.35449
2.6729	0.35421
2.6743	0.35430
2.6757	0.35444
2.677	0.35455
2.6784	0.35452
2.6798	0.35445
2.6812	0.35431
2.6826	0.35436
2.684	0.35436
2.6854	0.35429
2.6868	0.35428
2.6881	0.35415
2.6895	0.35404
2.6909	0.35395
2.6923	0.35392
2.6937	0.35395
2.6951	0.35379
2.6965	0.35354
2.6979	0.35330
2.6993	0.35315
2.7008	0.35311
2.7021	0.35294
2.7036	0.35260
2.705	0.35239
2.7064	0.35225
2.7078	0.35212
2.7092	0.35198
2.7106	0.35169
2.7121	0.35124
2.7135	0.35088
2.7149	0.35065
2.7163	0.35037
2.7177	0.35007
2.7192	0.34982
2.7206	0.34967
2.722	0.34903
2.7234	0.34864
2.7249	0.34837
2.7263	0.34774
2.7277	0.34720
2.7292	0.34672
2.7306	0.34624
2.7321	0.34573
2.7335	0.34531
2.7349	0.34497
2.7364	0.34435
2.7378	0.34388
2.7393	0.34350
2.7407	0.34290
2.7422	0.34213
2.7436	0.34144
2.7451	0.34088
2.7465	0.34030
2.748	0.33969
2.7494	0.33908
2.7509	0.33855
2.7524	0.33798
2.7538	0.33748
2.7553	0.33710
2.7567	0.33619
2.7582	0.33537
2.7597	0.33476
2.7611	0.33425
2.7626	0.33376
2.7641	0.33307
2.7656	0.33241
2.767	0.33191
2.7685	0.33132
2.77	0.33072
2.7715	0.33010
2.773	0.32940
2.7744	0.32878
2.7759	0.32829
2.7774	0.32775
2.7789	0.32717
2.7804	0.32677
2.7819	0.32629
2.7834	0.32573
2.7849	0.32526
2.7864	0.32491
2.7879	0.32441
2.7894	0.32376
2.7909	0.32336
2.7924	0.32298
2.7939	0.32258
2.7954	0.32221
2.7969	0.32184
2.7984	0.32147
2.7999	0.32112
2.8014	0.32080
2.8029	0.32058
2.8044	0.32023
2.806	0.31984
2.8075	0.31951
2.809	0.31920
2.8105	0.31893
2.8121	0.31867
2.8136	0.31844
2.8151	0.31818
2.8166	0.31793
2.8182	0.31776
2.8197	0.31747
2.8212	0.31716
2.8228	0.31700
2.8243	0.31687
2.8259	0.31673
2.8274	0.31656
2.8289	0.31636
2.8305	0.31622
2.832	0.31613
2.8336	0.31600
2.8351	0.31588
2.8367	0.31567
2.8382	0.31546
2.8398	0.31537
2.8413	0.31532
2.8429	0.31523
2.8444	0.31510
2.846	0.31496
2.8476	0.31486
2.8491	0.31476
2.8507	0.31465
2.8523	0.31456
2.8538	0.31446
2.8554	0.31431
2.857	0.31427
2.8586	0.31418
2.8601	0.31408
2.8617	0.31400
2.8633	0.31393
2.8649	0.31388
2.8665	0.31379
2.8681	0.31372
2.8696	0.31368
2.8712	0.31366
2.8728	0.31352
2.8744	0.31338
2.876	0.31345
2.8776	0.31346
2.8792	0.31341
2.8808	0.31332
2.8824	0.31310
2.884	0.31298
2.8856	0.31306
2.8872	0.31316
2.8888	0.31319
2.8904	0.31315
2.892	0.31312
2.8937	0.31310
2.8953	0.31304
2.8969	0.31301
2.8985	0.31303
2.9001	0.31304
2.9018	0.31302
2.9034	0.31300
2.905	0.31295
2.9066	0.31294
2.9083	0.31289
2.9099	0.31271
2.9115	0.31260
2.9132	0.31267
2.9148	0.31267
2.9164	0.31268
2.9181	0.31275
2.9197	0.31279
2.9214	0.31281
2.923	0.31280
2.9247	0.31279
2.9263	0.31283
2.928	0.31284
2.9296	0.31275
2.9313	0.31275
2.9329	0.31281
2.9346	0.31286
2.9363	0.31295
2.9379	0.31298
2.9396	0.31278
2.9413	0.31267
2.9429	0.31290
2.9446	0.31305
2.9463	0.31301
2.9479	0.31287
2.9496	0.31288
2.9513	0.31307
2.953	0.31316
2.9547	0.31320
2.9564	0.31324
2.958	0.31326
2.9597	0.31326
2.9614	0.31330
2.9631	0.31332
2.9648	0.31334
2.9665	0.31326
2.9682	0.31316
2.9699	0.31325
2.9716	0.31342
2.9733	0.31357
2.975	0.31367
2.9767	0.31376
2.9784	0.31381
2.9801	0.31386
2.9818	0.31397
2.9836	0.31397
2.9853	0.31395
2.987	0.31413
2.9887	0.31429
2.9904	0.31436
2.9922	0.31449
2.9939	0.31457
2.9956	0.31460
2.9974	0.31477
2.9991	0.31491
3.0008	0.31510
3.0026	0.31525
3.0043	0.31538
3.0061	0.31546
3.0078	0.31559
3.0095	0.31577
3.0113	0.31592
3.013	0.31609
3.0148	0.31627
3.0165	0.31639
3.0183	0.31655
3.0201	0.31666
3.0218	0.31664
3.0236	0.31660
3.0253	0.31665
3.0271	0.31696
3.0289	0.31735
3.0306	0.31756
3.0324	0.31767
3.0342	0.31777
3.036	0.31792
3.0377	0.31800
3.0395	0.31825
3.0413	0.31856
3.0431	0.31872
3.0449	0.31888
3.0467	0.31908
3.0485	0.31926
3.0503	0.31944
3.0521	0.31964
3.0538	0.31977
3.0556	0.31988
3.0574	0.31998
3.0593	0.32033
3.0611	0.32071
3.0629	0.32093
3.0647	0.32110
3.0665	0.32129
3.0683	0.32153
3.0701	0.32172
3.0719	0.32187
3.0738	0.32214
3.0756	0.32240
3.0774	0.32257
3.0792	0.32273
3.0811	0.32302
3.0829	0.32337
3.0847	0.32357
3.0866	0.32379
3.0884	0.32401
3.0902	0.32420
3.0921	0.32428
3.0939	0.32451
3.0958	0.32492
3.0976	0.32523
3.0995	0.32550
3.1013	0.32574
3.1032	0.32597
3.1051	0.32620
3.1069	0.32643
3.1088	0.32667
3.1106	0.32690
3.1125	0.32717
3.1144	0.32742
3.1162	0.32768
3.1181	0.32790
3.12	0.32815
3.1219	0.32846
3.1238	0.32874
3.1256	0.32899
3.1275	0.32923
3.1294	0.32948
3.1313	0.32973
3.1332	0.32999
3.1351	0.33025
3.137	0.33057
3.1389	0.33084
3.1408	0.33108
3.1427	0.33137
3.1446	0.33163
3.1465	0.33192
3.1484	0.33224
3.1503	0.33254
3.1522	0.33279
3.1541	0.33304
3.1561	0.33329
3.158	0.33357
3.1599	0.33386
3.1619	0.33419
3.1638	0.33446
3.1657	0.33471
3.1676	0.33498
3.1696	0.33524
3.1715	0.33533
3.1735	0.33555
3.1754	0.33602
3.1773	0.33641
3.1793	0.33668
3.1812	0.33693
3.1832	0.33721
3.1851	0.33738
3.1871	0.33767
3.1891	0.33803
3.191	0.33831
3.193	0.33856
3.195	0.33883
3.1969	0.33911
3.1989	0.33937
3.2009	0.33958
3.2029	0.33972
3.2048	0.33979
3.2068	0.34000
3.2088	0.34027
3.2108	0.34064
3.2128	0.34107
3.2148	0.34134
3.2168	0.34149
3.2188	0.34178
3.2208	0.34208
3.2228	0.34232
3.2248	0.34254
3.2268	0.34275
3.2288	0.34303
3.2308	0.34329
3.2328	0.34354
3.2348	0.34368
3.2369	0.34385
3.2389	0.34411
3.2409	0.34428
3.2429	0.34443
3.2449	0.34464
3.247	0.34475
3.249	0.34495
3.2511	0.34534
3.2531	0.34570
3.2551	0.34593
3.2572	0.34613
3.2592	0.34626
3.2613	0.34647
3.2633	0.34682
3.2654	0.34713
3.2674	0.34735
3.2695	0.34754
3.2716	0.34778
3.2736	0.34805
3.2757	0.34828
3.2778	0.34851
3.2798	0.34883
3.2819	0.34912
3.284	0.34930
3.2861	0.34944
3.2882	0.34966
3.2902	0.35005
3.2923	0.35038
3.2944	0.35053
3.2965	0.35068
3.2986	0.35096
3.3007	0.35123
3.3028	0.35153
3.3049	0.35176
3.307	0.35195
3.3091	0.35218
3.3113	0.35238
3.3134	0.35254
3.3155	0.35266
3.3176	0.35270
3.3197	0.35287
3.3219	0.35317
3.324	0.35353
3.3261	0.35379
3.3283	0.35398
3.3304	0.35411
3.3325	0.35422
3.3347	0.35428
3.3368	0.35436
3.339	0.35445
3.3411	0.35438
3.3433	0.35444
3.3454	0.35457
3.3476	0.35455
3.3498	0.35452
3.3519	0.35435
3.3541	0.35409
3.3563	0.35390
3.3584	0.35377
3.3606	0.35348
3.3628	0.35308
3.365	0.35268
3.3672	0.35226
3.3694	0.35182
3.3715	0.35148
3.3737	0.35126
3.3759	0.35120
3.3781	0.35134
3.3803	0.35169
3.3825	0.35210
3.3847	0.35249
3.3869	0.35282
3.3892	0.35312
3.3914	0.35319
3.3936	0.35302
3.3958	0.35273
3.3981	0.35242
3.4003	0.35211
3.4025	0.35165
3.4047	0.35115
3.407	0.35070
3.4092	0.35031
3.4115	0.34996
3.4137	0.34973
3.416	0.34984
3.4182	0.35019
3.4205	0.35080
3.4227	0.35161
3.425	0.35248
3.4273	0.35333
3.4295	0.35416
3.4318	0.35487
3.4341	0.35563
3.4363	0.35639
3.4386	0.35701
3.4409	0.35754
3.4432	0.35803
3.4455	0.35856
3.4478	0.35906
3.4501	0.35946
3.4523	0.35982
3.4546	0.36023
3.4569	0.36069
3.4593	0.36108
3.4616	0.36143
3.4639	0.36168
3.4662	0.36183
3.4685	0.36193
3.4708	0.36200
3.4732	0.36206
3.4755	0.36220
3.4778	0.36231
3.4801	0.36236
3.4825	0.36263
3.4848	0.36295
3.4872	0.36309
3.4895	0.36314
3.4919	0.36312
3.4942	0.36306
3.4966	0.36298
3.4989	0.36300
3.5013	0.36319
3.5037	0.36368
3.506	0.36440
3.5084	0.36529
3.5108	0.36627
3.5132	0.36723
3.5155	0.36812
3.5179	0.36889
3.5203	0.36943
3.5227	0.36984
3.5251	0.37037
3.5275	0.37085
3.5299	0.37123
3.5323	0.37159
3.5347	0.37190
3.5371	0.37220
3.5395	0.37248
3.5419	0.37275
3.5444	0.37302
3.5468	0.37329
3.5492	0.37352
3.5517	0.37377
3.5541	0.37402
3.5565	0.37428
3.559	0.37449
3.5614	0.37474
3.5639	0.37499
3.5663	0.37525
3.5688	0.37545
3.5712	0.37566
3.5737	0.37586
3.5761	0.37611
3.5786	0.37634
3.5811	0.37655
3.5836	0.37675
3.586	0.37697
3.5885	0.37723
3.591	0.37749
3.5935	0.37770
3.596	0.37792
3.5985	0.37814
3.601	0.37833
3.6035	0.37848
3.606	0.37870
3.6085	0.37894
3.611	0.37916
3.6135	0.37934
3.6161	0.37955
3.6186	0.37974
3.6211	0.37990
3.6236	0.38007
3.6262	0.38028
3.6287	0.38049
3.6313	0.38069
3.6338	0.38085
3.6363	0.38101
3.6389	0.38118
3.6414	0.38138
3.644	0.38156
3.6466	0.38174
3.6491	0.38194
3.6517	0.38212
3.6543	0.38230
3.6569	0.38249
3.6594	0.38266
3.662	0.38286
3.6646	0.38302
3.6672	0.38315
3.6698	0.38332
3.6724	0.38352
3.675	0.38373
3.6776	0.38396
3.6802	0.38416
3.6828	0.38436
3.6854	0.38453
3.6881	0.38471
3.6907	0.38487
3.6933	0.38508
3.6959	0.38526
3.6986	0.38545
3.7012	0.38566
3.7039	0.38585
3.7065	0.38602
3.7092	0.38621
3.7118	0.38639
3.7145	0.38657
3.7171	0.38675
3.7198	0.38693
3.7225	0.38708
3.7252	0.38725
3.7278	0.38740
3.7305	0.38757
3.7332	0.38774
3.7359	0.38791
3.7386	0.38805
3.7413	0.38822
3.744	0.38840
3.7467	0.38857
3.7494	0.38873
3.7521	0.38888
3.7548	0.38902
3.7576	0.38921
3.7603	0.38938
3.763	0.38955
3.7657	0.38971
3.7685	0.38986
3.7712	0.38997
3.774	0.39009
3.7767	0.39024
3.7795	0.39042
3.7822	0.39058
3.785	0.39071
3.7877	0.39081
3.7905	0.39096
3.7933	0.39109
3.7961	0.39120
3.7988	0.39132
3.8016	0.39147
3.8044	0.39162
3.8072	0.39174
3.81	0.39183
3.8128	0.39198
3.8156	0.39209
3.8184	0.39221
3.8212	0.39232
3.8241	0.39246
3.8269	0.39258
3.8297	0.39268
3.8325	0.39276
3.8354	0.39286
3.8382	0.39296
3.8411	0.39309
3.8439	0.39320
3.8468	0.39333
3.8496	0.39342
3.8525	0.39350
3.8553	0.39361
3.8582	0.39372
3.8611	0.39380
3.8639	0.39392
3.8668	0.39400
3.8697	0.39408
3.8726	0.39413
3.8755	0.39422
3.8784	0.39434
3.8813	0.39446
3.8842	0.39452
3.8871	0.39463
3.89	0.39471
3.893	0.39478
3.8959	0.39485
3.8988	0.39495
3.9017	0.39500
3.9047	0.39507
3.9076	0.39515
3.9106	0.39522
3.9135	0.39527
3.9165	0.39533
3.9194	0.39537
3.9224	0.39542
3.9254	0.39546
3.9284	0.39551
3.9313	0.39557
3.9343	0.39567
3.9373	0.39571
3.9403	0.39576
3.9433	0.39579
3.9463	0.39585
3.9493	0.39588
3.9523	0.39592
3.9553	0.39593
3.9583	0.39600
3.9614	0.39602
3.9644	0.39602
3.9674	0.39604
3.9705	0.39612
3.9735	0.39614
3.9766	0.39615
3.9796	0.39619
3.9826	0.39624
3.9857	0.39623
3.9888	0.39628
3.9919	0.39633
3.9949	0.39638
3.998	0.39640
4.0011	0.39644
4.0042	0.39644
4.0073	0.39647
4.0104	0.39650
4.0135	0.39651
4.0166	0.39648
4.0197	0.39649
4.0228	0.39651
4.0259	0.39653
4.0291	0.39651
4.0322	0.39655
4.0353	0.39657
4.0385	0.39660
4.0416	0.39659
4.0448	0.39661
4.0479	0.39660
4.0511	0.39664
4.0543	0.39665
4.0574	0.39668
4.0606	0.39670
4.0638	0.39671
4.067	0.39671
4.0702	0.39676
4.0734	0.39673
4.0766	0.39675
4.0798	0.39675
4.083	0.39677
4.0862	0.39676
4.0894	0.39679
4.0927	0.39676
4.0959	0.39676
4.0991	0.39676
4.1024	0.39679
4.1056	0.39678
4.1089	0.39681
4.1121	0.39680
4.1154	0.39681
4.1187	0.39678
4.122	0.39678
4.1252	0.39677
4.1285	0.39679
4.1318	0.39676
4.1351	0.39677
4.1384	0.39677
4.1417	0.39682
4.145	0.39680
4.1483	0.39679
4.1516	0.39678
4.155	0.39678
4.1583	0.39676
4.1616	0.39676
4.165	0.39671
4.1683	0.39669
4.1717	0.39664
4.175	0.39661
4.1784	0.39655
4.1818	0.39655
4.1852	0.39651
4.1885	0.39648
4.1919	0.39642
4.1953	0.39642
4.1987	0.39638
4.2021	0.39638
4.2055	0.39638
4.2089	0.39645
4.2124	0.39653
4.2158	0.39665
4.2192	0.39665
4.2226	0.39668
4.2261	0.39665
4.2295	0.39662
4.233	0.39647
4.2365	0.39635
4.2399	0.39619
4.2434	0.39603
4.2469	0.39577
4.2503	0.39547
4.2538	0.39509
4.2573	0.39491
4.2608	0.39487
4.2643	0.39487
4.2678	0.39475
4.2714	0.39462
4.2749	0.39439
4.2784	0.39415
4.2819	0.39385
4.2855	0.39363
4.289	0.39335
4.2926	0.39305
4.2961	0.39268
4.2997	0.39232
4.3033	0.39196
4.3068	0.39165
4.3104	0.39125
4.314	0.39087
4.3176	0.39051
4.3212	0.39023
4.3248	0.38989
4.3284	0.38958
4.332	0.38925
4.3356	0.38893
4.3393	0.38860
4.3429	0.38832
4.3465	0.38803
4.3502	0.38777
4.3538	0.38744
4.3575	0.38716
4.3611	0.38684
4.3648	0.38658
4.3685	0.38629
4.3722	0.38601
4.3759	0.38570
4.3796	0.38545
4.3833	0.38517
4.387	0.38493
4.3907	0.38466
4.3944	0.38449
4.3981	0.38425
4.4019	0.38402
4.4056	0.38378
4.4094	0.38360
4.4131	0.38339
4.4169	0.38323
4.4206	0.38302
4.4244	0.38288
4.4282	0.38273
4.432	0.38260
4.4358	0.38241
4.4396	0.38228
4.4434	0.38212
4.4472	0.38201
4.451	0.38184
4.4548	0.38168
4.4586	0.38146
4.4625	0.38128
4.4663	0.38103
4.4702	0.38080
4.474	0.38052
4.4779	0.38031
4.4818	0.38003
4.4856	0.37972
4.4895	0.37940
4.4934	0.37914
4.4973	0.37879
4.5012	0.37845
4.5051	0.37808
4.509	0.37772
4.513	0.37734
4.5169	0.37698
4.5208	0.37654
4.5248	0.37613
4.5287	0.37568
4.5327	0.37527
4.5367	0.37480
4.5406	0.37437
4.5446	0.37389
4.5486	0.37338
4.5526	0.37284
4.5566	0.37236
4.5606	0.37181
4.5646	0.37127
4.5686	0.37067
4.5727	0.37011
4.5767	0.36947
4.5808	0.36885
4.5848	0.36818
4.5889	0.36755
4.5929	0.36686
4.597	0.36617
4.6011	0.36540
4.6052	0.36464
4.6093	0.36383
4.6134	0.36305
4.6175	0.36218
4.6216	0.36133
4.6257	0.36046
4.6298	0.35963
4.634	0.35873
4.6381	0.35790
4.6423	0.35707
4.6464	0.35629
4.6506	0.35551
4.6548	0.35480
4.659	0.35408
4.6631	0.35343
4.6673	0.35273
4.6715	0.35207
4.6758	0.35138
4.68	0.35071
4.6842	0.34997
4.6884	0.34929
4.6927	0.34857
4.6969	0.34787
4.7012	0.34710
4.7055	0.34635
4.7097	0.34555
4.714	0.34479
4.7183	0.34400
4.7226	0.34324
4.7269	0.34243
4.7312	0.34169
4.7355	0.34091
4.7399	0.34018
4.7442	0.33943
4.7485	0.33872
4.7529	0.33795
4.7573	0.33725
4.7616	0.33653
4.766	0.33590
4.7704	0.33521
4.7748	0.33456
4.7792	0.33388
4.7836	0.33327
4.788	0.33261
4.7924	0.33197
4.7969	0.33127
4.8013	0.33060
4.8058	0.32988
4.8102	0.32918
4.8147	0.32840
4.8191	0.32767
4.8236	0.32688
4.8281	0.32614
4.8326	0.32534
4.8371	0.32456
4.8416	0.32369
4.8462	0.32289
4.8507	0.32206
4.8553	0.32122
4.8598	0.32036
4.8644	0.31954
4.8689	0.31864
4.8735	0.31779
4.8781	0.31689
4.8827	0.31605
4.8873	0.31514
4.8919	0.31426
4.8965	0.31331
4.9011	0.31242
4.9058	0.31143
4.9104	0.31048
4.9151	0.30949
4.9197	0.30853
4.9244	0.30754
4.9291	0.30659
4.9338	0.30561
4.9385	0.30468
4.9432	0.30371
4.9479	0.30277
4.9526	0.30179
4.9574	0.30086
4.9621	0.29985
4.9669	0.29890
4.9716	0.29790
4.9764	0.29695
4.9812	0.29596
4.986	0.29500
4.9908	0.29399
4.9956	0.29301
5.0004	0.29200
5.0052	0.29102
5.01	0.28998
5.0149	0.28901
5.0198	0.28797
5.0246	0.28695
5.0295	0.28588
5.0344	0.28489
5.0393	0.28389
5.0442	0.28295
5.0491	0.28195
5.054	0.28101
5.0589	0.28004
5.0639	0.27914
5.0688	0.27818
5.0738	0.27730
5.0788	0.27638
5.0837	0.27549
5.0887	0.27454
5.0937	0.27364
5.0987	0.27269
5.1037	0.27178
5.1088	0.27078
5.1138	0.26981
5.1189	0.26878
5.1239	0.26774
5.129	0.26664
5.1341	0.26555
5.1391	0.26441
5.1443	0.26334
5.1494	0.26222
5.1545	0.26114
5.1596	0.26005
5.1647	0.25902
5.1699	0.25798
5.175	0.25699
5.1802	0.25599
5.1854	0.25505
5.1906	0.25409
5.1958	0.25321
5.201	0.25229
5.2062	0.25143
5.2115	0.25056
5.2167	0.24972
5.222	0.24883
5.2272	0.24801
5.2325	0.24714
5.2378	0.24629
5.2431	0.24539
5.2484	0.24453
5.2537	0.24364
5.259	0.24280
5.2644	0.24190
5.2697	0.24102
5.2751	0.24010
5.2805	0.23922
5.2858	0.23836
5.2912	0.23757
5.2966	0.23675
5.302	0.23602
5.3075	0.23527
5.3129	0.23462
5.3184	0.23396
5.3238	0.23337
5.3293	0.23274
5.3348	0.23217
5.3403	0.23154
5.3458	0.23092
5.3513	0.23018
5.3568	0.22940
5.3624	0.22858
5.3679	0.22780
5.3735	0.22696
5.379	0.22611
5.3846	0.22521
5.3902	0.22439
5.3958	0.22355
5.4015	0.22274
5.4071	0.22193
5.4127	0.22121
5.4184	0.22052
5.4241	0.21988
5.4297	0.21919
5.4354	0.21870
5.4411	0.21822
5.4469	0.21779
5.4526	0.21738
5.4583	0.21713
5.4641	0.21693
5.4698	0.21673
5.4756	0.21659
5.4814	0.21656
5.4872	0.21648
5.493	0.21653
5.4988	0.21653
5.5047	0.21656
5.5105	0.21656
5.5164	0.21665
5.5223	0.21670
5.5281	0.21682
5.534	0.21683
5.54	0.21689
5.5459	0.21690
5.5518	0.21692
5.5578	0.21676
5.5637	0.21662
5.5697	0.21636
5.5757	0.21614
5.5817	0.21572
5.5877	0.21527
5.5937	0.21476
5.5998	0.21427
5.6058	0.21366
5.6119	0.21310
5.618	0.21246
5.6241	0.21184
5.6302	0.21115
5.6363	0.21057
5.6424	0.20990
5.6486	0.20922
5.6547	0.20855
5.6609	0.20794
5.6671	0.20731
5.6733	0.20685
5.6795	0.20628
5.6857	0.20578
5.692	0.20523
5.6982	0.20473
5.7045	0.20423
5.7108	0.20377
5.7171	0.20309
5.7234	0.20247
5.7297	0.20176
5.736	0.20113
5.7424	0.20041
5.7488	0.19970
5.7551	0.19878
5.7615	0.19810
5.768	0.19716
5.7744	0.19610
5.7808	0.19505
5.7873	0.19404
5.7937	0.19290
5.8002	0.19183
5.8067	0.19064
5.8132	0.18955
5.8197	0.18840
5.8263	0.18713
5.8328	0.18575
5.8394	0.18447
5.846	0.18312
5.8526	0.18187
5.8592	0.18057
5.8658	0.17927
5.8725	0.17801
5.8791	0.17692
5.8858	0.17540
5.8925	0.17420
5.8992	0.17281
5.9059	0.17143
5.9126	0.17018
5.9194	0.16898
5.9262	0.16773
5.9329	0.16663
5.9397	0.16522
5.9465	0.16385
5.9534	0.16252
5.9602	0.16131
5.9671	0.16008
5.974	0.15879
5.9808	0.15757
5.9878	0.15648
5.9947	0.15528
6.0016	0.15426
6.0086	0.15337
6.0155	0.15257
6.0225	0.15178
6.0295	0.15118
6.0365	0.15071
6.0436	0.15055
6.0506	0.15028
6.0577	0.14989
6.0648	0.14974
6.0719	0.14973
6.079	0.14960
6.0861	0.14951
6.0933	0.14943
6.1005	0.14938
6.1076	0.14932
6.1149	0.14923
6.1221	0.14896
6.1293	0.14875
6.1365	0.14856
6.1438	0.14839
6.1511	0.14820
6.1584	0.14807
6.1657	0.14790
6.1731	0.14779
6.1804	0.14772
6.1878	0.14761
6.1952	0.14740
6.2026	0.14732
6.21	0.14721
6.2175	0.14711
6.225	0.14699
6.2324	0.14692
6.2399	0.14680
6.2475	0.14670
6.255	0.14658
6.2625	0.14648
6.2701	0.14630
6.2777	0.14615
6.2853	0.14601
6.293	0.14585
6.3006	0.14567
6.3083	0.14556
6.3159	0.14542
6.3236	0.14536
6.3314	0.14536
6.3391	0.14548
6.3469	0.14554
6.3546	0.14556
6.3624	0.14566
6.3703	0.14582
6.3781	0.14589
6.3859	0.14601
6.3938	0.14610
6.4017	0.14618
6.4096	0.14629
6.4176	0.14621
6.4255	0.14589
6.4335	0.14569
6.4415	0.14541
6.4495	0.14511
6.4575	0.14479
6.4656	0.14447
6.4736	0.14414
6.4817	0.14386
6.4898	0.14359
6.498	0.14330
6.5061	0.14293
6.5143	0.14270
6.5225	0.14239
6.5307	0.14204
6.539	0.14176
6.5472	0.14151
6.5555	0.14121
6.5638	0.14093
6.5721	0.14064
6.5804	0.14024
6.5888	0.13987
6.5972	0.13955
6.6056	0.13920
6.614	0.13891
6.6225	0.13860
6.6309	0.13839
6.6394	0.13815
6.6479	0.13789
6.6565	0.13772
6.665	0.13767
6.6736	0.13761
6.6822	0.13759
6.6908	0.13747
6.6995	0.13737
6.7081	0.13725
6.7168	0.13708
6.7255	0.13681
6.7343	0.13651
6.743	0.13617
6.7518	0.13583
6.7606	0.13539
6.7694	0.13496
6.7783	0.13443
6.7871	0.13388
6.796	0.13320
6.805	0.13260
6.8139	0.13212
6.8229	0.13171
6.8319	0.13122
6.8409	0.13079
6.8499	0.13045
6.859	0.13019
6.868	0.12978
6.8772	0.12932
6.8863	0.12894
6.8955	0.12865
6.9046	0.12834
6.9138	0.12796
6.9231	0.12751
6.9323	0.12711
6.9416	0.12665
6.9509	0.12622
6.9602	0.12573
6.9696	0.12513
6.979	0.12453
6.9884	0.12396
6.9978	0.12334
7.0073	0.12274
7.0168	0.12210
7.0263	0.12145
7.0358	0.12077
7.0454	0.12009
7.0549	0.11931
7.0645	0.11862
7.0742	0.11786
7.0839	0.11713
7.0935	0.11641
7.1033	0.11573
7.113	0.11503
7.1228	0.11432
7.1326	0.11354
7.1424	0.11284
7.1522	0.11206
7.1621	0.11126
7.172	0.11037
7.182	0.10948
7.1919	0.10856
7.2019	0.10763
7.2119	0.10662
7.222	0.10565
7.232	0.10463
7.2421	0.10365
7.2523	0.10267
7.2624	0.10176
7.2726	0.10075
7.2828	0.09968
7.2931	0.09865
7.3033	0.09771
7.3136	0.09663
7.324	0.09563
7.3343	0.09461
7.3447	0.09351
7.3551	0.09235
7.3656	0.09122
7.3761	0.09003
7.3866	0.08887
7.3971	0.08761
7.4077	0.08641
7.4183	0.08516
7.4289	0.08394
7.4396	0.08265
7.4502	0.08139
7.461	0.08008
7.4717	0.07881
7.4825	0.07751
7.4933	0.07631
7.5042	0.07501
7.515	0.07376
7.5259	0.07248
7.5369	0.07121
7.5479	0.06987
7.5589	0.06856
7.5699	0.06717
7.581	0.06586
7.592	0.06451
7.6032	0.06321
7.6144	0.06183
7.6255	0.06052
7.6368	0.05916
7.648	0.05781
7.6593	0.05640
7.6707	0.05503
7.682	0.05358
7.6934	0.05219
7.7049	0.05070
7.7163	0.04926
7.7278	0.04773
7.7394	0.04626
7.7509	0.04474
7.7625	0.04330
7.7742	0.04180
7.7858	0.04036
7.7975	0.03883
7.8093	0.03741
7.8211	0.03594
7.8329	0.03453
7.8447	0.03307
7.8566	0.03173
7.8685	0.03031
7.8805	0.02892
7.8925	0.02753
7.9045	0.02623
7.9166	0.02487
7.9287	0.02363
7.9408	0.02237
7.953	0.02121
7.9652	0.02006
7.9775	0.01901
7.9898	0.01789
8.0021	0.01695
8.0145	0.01603
8.0269	0.01522
8.0393	0.01438
8.0518	0.01364
8.0643	0.01294
8.0769	0.01239
8.0895	0.01179
8.1021	0.01134
8.1148	0.01088
8.1275	0.01054
8.1403	0.01024
8.1531	0.01010
8.1659	0.00993
8.1788	0.00990
8.1917	0.00986
8.2047	0.01004
8.2177	0.01019
8.2307	0.01049
8.2438	0.01082
8.257	0.01134
8.2701	0.01187
8.2833	0.01257
8.2966	0.01328
8.3099	0.01408
8.3232	0.01482
8.3366	0.01571
8.35	0.01650
8.3635	0.01734
8.377	0.01815
8.3905	0.01901
8.4042	0.01977
8.4178	0.02060
8.4315	0.02142
8.4452	0.02225
8.459	0.02287
8.4728	0.02352
8.4867	0.02405
8.5006	0.02457
8.5145	0.02499
8.5285	0.02548
8.5426	0.02594
8.5567	0.02639
8.5708	0.02678
8.585	0.02722
8.5993	0.02753
8.6135	0.02789
8.6279	0.02818
8.6423	0.02850
8.6567	0.02874
8.6712	0.02897
8.6857	0.02913
8.7003	0.02936
8.7149	0.02952
8.7295	0.02970
8.7443	0.02983
8.759	0.02996
8.7739	0.03001
8.7887	0.03012
8.8037	0.03010
8.8186	0.03007
8.8337	0.03001
8.8487	0.03007
8.8638	0.03006
8.879	0.03018
8.8943	0.03022
8.9095	0.03025
8.9249	0.03025
8.9403	0.03028
8.9557	0.03027
8.9712	0.03038
8.9868	0.03043
9.0023	0.03047
9.018	0.03045
9.0337	0.03048
9.0495	0.03041
9.0653	0.03037
9.0812	0.03025
9.0971	0.03016
9.1131	0.02998
9.1291	0.02978
9.1452	0.02950
9.1614	0.02926
9.1776	0.02900
9.1939	0.02886
9.2102	0.02871
9.2266	0.02863
9.243	0.02860
9.2595	0.02873
9.2761	0.02872
9.2927	0.02875
9.3094	0.02878
9.3262	0.02885
9.343	0.02887
9.3598	0.02899
9.3768	0.02915
9.3938	0.02933
9.4108	0.02943
9.4279	0.02964
9.4451	0.02988
9.4623	0.03023
9.4796	0.03060
9.497	0.03103
9.5144	0.03143
9.5319	0.03188
9.5494	0.03236
9.567	0.03290
9.5847	0.03335
9.6025	0.03379
9.6203	0.03413
9.6382	0.03444
9.6561	0.03467
9.6742	0.03492
9.6922	0.03509
9.7104	0.03525
9.7286	0.03532
9.7469	0.03541
9.7652	0.03548
9.7837	0.03555
9.8022	0.03551
9.8207	0.03548
9.8394	0.03538
9.8581	0.03528
9.8768	0.03519
9.8957	0.03520
9.9146	0.03525
9.9336	0.03534
9.9527	0.03549
9.9718	0.03578
9.991	0.03600
10.0103	0.03624
10.0297	0.03649
10.0491	0.03683
10.0686	0.03710
10.0882	0.03743
10.1079	0.03774
10.1276	0.03804
10.1475	0.03827
10.1673	0.03849
10.1873	0.03862
10.2074	0.03887
10.2275	0.03922
10.2477	0.03974
10.268	0.04033
10.2884	0.04105
10.3088	0.04179
10.3294	0.04248
10.35	0.04306
10.3707	0.04365
10.3915	0.04426
10.4123	0.04493
10.4333	0.04547
10.4543	0.04589
10.4754	0.04625
10.4967	0.04664
10.5179	0.04704
10.5393	0.04745
10.5608	0.04768
10.5823	0.04789
10.604	0.04807
10.6257	0.04829
10.6475	0.04839
10.6694	0.04845
10.6914	0.04846
10.7135	0.04857
10.7357	0.04866
10.758	0.04867
10.7803	0.04856
10.8028	0.04839
10.8254	0.04808
10.848	0.04767
10.8708	0.04718
10.8936	0.04682
10.9165	0.04645
10.9395	0.04614
10.9627	0.04576
10.9859	0.04535
11.0092	0.04492
11.0327	0.04460
11.0562	0.04421
11.0798	0.04389
11.1035	0.04355
11.1274	0.04317
11.1513	0.04271
11.1753	0.04232
11.1995	0.04184
11.2237	0.04136
11.248	0.04086
11.2725	0.04036
11.2971	0.03979
11.3217	0.03918
11.3465	0.03861
11.3714	0.03815
11.3964	0.03760
11.4215	0.03709
11.4467	0.03660
11.472	0.03620
11.4975	0.03574
11.523	0.03535
11.5487	0.03489
11.5744	0.03449
11.6003	0.03410
11.6263	0.03378
11.6525	0.03348
11.6787	0.03320
11.7051	0.03284
11.7316	0.03255
11.7582	0.03231
11.7849	0.03210
11.8117	0.03182
11.8387	0.03165
11.8658	0.03151
11.893	0.03135
11.9203	0.03118
11.9478	0.03114
11.9754	0.03109
12.0031	0.03103
12.031	0.03089
12.059	0.03082
12.0871	0.03073
12.1153	0.03062
12.1437	0.03051
12.1722	0.03044
12.2008	0.03030
12.2296	0.03024
12.2585	0.03010
12.2876	0.02995
12.3168	0.02965
12.3461	0.02936
12.3755	0.02909
12.4052	0.02881
12.4349	0.02837
12.4648	0.02793
12.4948	0.02741
12.525	0.02691
12.5553	0.02642
12.5858	0.02601
12.6164	0.02548
12.6472	0.02487
12.6781	0.02420
12.7092	0.02354
12.7404	0.02287
12.7718	0.02231
12.8033	0.02167
12.835	0.02121
12.8669	0.02091
12.8989	0.02076
12.9311	0.02069
12.9634	0.02079
12.9959	0.02080
13.0285	0.02073
13.0613	0.02064
13.0943	0.02072
13.1275	0.02096
13.1608	0.02125
13.1943	0.02136
13.228	0.02138
13.2618	0.02136
13.2958	0.02131
13.33	0.02117
13.3643	0.02091
13.3988	0.02060
13.4336	0.02038
13.4685	0.02019
13.5035	0.02004
13.5388	0.01974
13.5742	0.01958
13.6099	0.01961
13.6457	0.01976
13.6817	0.01986
13.7179	0.02000
13.7543	0.02025
13.7908	0.02042
13.8276	0.02039
13.8646	0.02039
13.9018	0.02024
13.9392	0.02019
13.9767	0.02015
14.0145	0.02002
14.0525	0.01976
14.0907	0.01948
14.129	0.01930
14.1676	0.01916
14.2065	0.01885
14.2455	0.01869
14.2847	0.01862
14.3242	0.01849
14.3639	0.01829
14.4038	0.01813
14.4439	0.01800
14.4843	0.01799
14.5248	0.01795
14.5656	0.01796
14.6067	0.01790
14.6479	0.01788
14.6894	0.01790
14.7312	0.01779
14.7731	0.01767
14.8153	0.01769
14.8578	0.01770
14.9005	0.01787
14.9434	0.01800
14.9866	0.01814
15.03	0.01828
15.0737	0.01838
15.1177	0.01832
15.1619	0.01828
15.2063	0.01824
15.2511	0.01839
15.2961	0.01854
15.3413	0.01880
15.3868	0.01934
15.4326	0.02012
15.4787	0.02078
15.525	0.02146
15.5717	0.02206
15.6186	0.02255
15.6658	0.02301
15.7132	0.02368
15.761	0.02418
15.809	0.02464
15.8574	0.02503
15.906	0.02543
15.955	0.02561
16.0042	0.02576
16.0538	0.02598
16.1036	0.02611
16.1538	0.02583
16.2043	0.02536
16.2551	0.02498
16.3062	0.02496
16.3576	0.02526
16.4094	0.02561
16.4615	0.02602
16.5139	0.02654
16.5667	0.02708
16.6198	0.02753
16.6732	0.02773
16.727	0.02781
16.7811	0.02796
16.8356	0.02846
16.8905	0.02921
16.9457	0.02989
17.0012	0.02997
17.0572	0.02998
17.1134	0.03008
17.1701	0.03003
17.2272	0.02966
17.2846	0.02932
17.3424	0.02897
17.4006	0.02884
17.4592	0.02890
17.5182	0.02908
17.5775	0.02966
17.6373	0.03015
17.6975	0.03006
17.7581	0.02985
17.8192	0.02955
17.8806	0.02912
17.9425	0.02878
18.0048	0.02869
18.0675	0.02876
18.1307	0.02902
18.1943	0.02921
18.2584	0.02978
18.3229	0.03069
18.3879	0.03194
18.4533	0.03287
18.5192	0.03305
18.5856	0.03299
18.6524	0.03286
18.7198	0.03243
18.7876	0.03184
18.8559	0.03127
18.9247	0.03107
18.9941	0.03047
19.0639	0.02999
19.1342	0.03017
19.2051	0.03025
19.2765	0.03019
19.3484	0.02993
19.4209	0.02974
19.4939	0.02977
19.5675	0.02989
19.6416	0.02990
19.7163	0.02966
19.7915	0.02943
19.8673	0.02943
19.9438	0.02924
20.0208	0.02883
20.0984	0.02851
20.1766	0.02827
20.2554	0.02796
20.3348	0.02770
20.4149	0.02811
20.4956	0.02865
20.5769	0.02888
20.6589	0.02912
20.7415	0.02924
20.8248	0.02889
20.9088	0.02873
20.9934	0.02868
21.0788	0.02869
21.1648	0.02869
21.2516	0.02878
21.339	0.02905
21.4272	0.02909
21.5161	0.02899
21.6058	0.02903
21.6962	0.02841
21.7873	0.02831
21.8793	0.02818
21.972	0.02736
22.0655	0.02681
22.1597	0.02647
22.2548	0.02668
22.3508	0.02695
22.4475	0.02680
22.5451	0.02653
22.6436	0.02643
22.7429	0.02655
22.8431	0.02680
22.9442	0.02737
23.0462	0.02815
23.149	0.02923
23.2528	0.03059
23.3576	0.03133
23.4633	0.03177
23.5699	0.03221
23.6775	0.03285
23.7861	0.03348
23.8958	0.03261
24.0064	0.03185
24.118	0.03176
24.2307	0.03280
24.3445	0.03385
24.4594	0.03442
24.5753	0.03531
24.6923	0.03619
24.8104	0.03582
24.9297	0.03427
25.0502	0.03452
